{
  "resourceType": "Bundle",
  "type": "collection",
  "timestamp": "2024-01-20T10:30:00Z",
  "entry": [
    {
      "fullUrl": "urn:uuid:medmap-statement-001",
      "resource": {
        "resourceType": "MedicationStatement",
        "id": "medmap-statement-001",
        "status": "active",
        "medicationCodeableConcept": {
          "coding": [
            {
              "system": "http://www.nlm.nih.gov/research/umls/rxnorm",
              "code": "197361",
              "display": "Metformin 500 MG Oral Tablet"
            }
          ],
          "text": "Metformin 500mg"
        },
        "subject": {
          "reference": "Patient/example-patient-123",
          "display": "John Doe"
        },
        "effectivePeriod": {
          "start": "2024-01-15"
        },
        "dateAsserted": "2024-01-20T10:30:00Z",
        "informationSource": {
          "reference": "Patient/example-patient-123",
          "display": "John Doe (self-reported via MedMap)"
        },
        "derivedFrom": [
          {
            "reference": "Provenance/medmap-provenance-001"
          }
        ],
        "dosage": [
          {
            "text": "Take 1 tablet by mouth twice daily with meals",
            "timing": {
              "repeat": {
                "frequency": 2,
                "period": 1,
                "periodUnit": "d"
              }
            },
            "route": {
              "coding": [
                {
                  "system": "http://snomed.info/sct",
                  "code": "26643006",
                  "display": "Oral route"
                }
              ]
            },
            "doseAndRate": [
              {
                "doseQuantity": {
                  "value": 1,
                  "unit": "tablet",
                  "system": "http://unitsofmeasure.org",
                  "code": "{tbl}"
                }
              }
            ]
          }
        ],
        "note": [
          {
            "text": "Verified by patient on 2024-01-20. No adverse effects reported."
          }
        ]
      }
    },
    {
      "fullUrl": "urn:uuid:medmap-statement-002",
      "resource": {
        "resourceType": "MedicationStatement",
        "id": "medmap-statement-002",
        "status": "active",
        "medicationCodeableConcept": {
          "coding": [
            {
              "system": "http://www.nlm.nih.gov/research/umls/rxnorm",
              "code": "314076",
              "display": "Lisinopril 10 MG Oral Tablet"
            }
          ],
          "text": "Lisinopril 10mg"
        },
        "subject": {
          "reference": "Patient/example-patient-123",
          "display": "John Doe"
        },
        "effectivePeriod": {
          "start": "2023-11-01"
        },
        "dateAsserted": "2024-01-20T10:30:00Z",
        "informationSource": {
          "reference": "Patient/example-patient-123",
          "display": "John Doe (self-reported via MedMap)"
        },
        "derivedFrom": [
          {
            "reference": "Provenance/medmap-provenance-002"
          }
        ],
        "dosage": [
          {
            "text": "Take 1 tablet by mouth once daily in the morning",
            "timing": {
              "repeat": {
                "frequency": 1,
                "period": 1,
                "periodUnit": "d",
                "when": ["MORN"]
              }
            },
            "route": {
              "coding": [
                {
                  "system": "http://snomed.info/sct",
                  "code": "26643006",
                  "display": "Oral route"
                }
              ]
            },
            "doseAndRate": [
              {
                "doseQuantity": {
                  "value": 1,
                  "unit": "tablet",
                  "system": "http://unitsofmeasure.org",
                  "code": "{tbl}"
                }
              }
            ]
          }
        ],
        "note": [
          {
            "text": "For blood pressure management. Regular monitoring recommended."
          }
        ]
      }
    },
    {
      "fullUrl": "urn:uuid:medmap-provenance-001",
      "resource": {
        "resourceType": "Provenance",
        "id": "medmap-provenance-001",
        "target": [
          {
            "reference": "MedicationStatement/medmap-statement-001"
          }
        ],
        "recorded": "2024-01-20T10:30:00Z",
        "agent": [
          {
            "type": {
              "coding": [
                {
                  "system": "http://terminology.hl7.org/CodeSystem/provenance-participant-type",
                  "code": "author",
                  "display": "Author"
                }
              ]
            },
            "who": {
              "reference": "Patient/example-patient-123",
              "display": "John Doe"
            }
          }
        ],
        "entity": [
          {
            "role": "source",
            "what": {
              "display": "MedMap Application v1.0.0"
            }
          }
        ]
      }
    },
    {
      "fullUrl": "urn:uuid:medmap-provenance-002",
      "resource": {
        "resourceType": "Provenance",
        "id": "medmap-provenance-002",
        "target": [
          {
            "reference": "MedicationStatement/medmap-statement-002"
          }
        ],
        "recorded": "2024-01-20T10:30:00Z",
        "agent": [
          {
            "type": {
              "coding": [
                {
                  "system": "http://terminology.hl7.org/CodeSystem/provenance-participant-type",
                  "code": "author",
                  "display": "Author"
                }
              ]
            },
            "who": {
              "reference": "Patient/example-patient-123",
              "display": "John Doe"
            }
          }
        ],
        "entity": [
          {
            "role": "source",
            "what": {
              "display": "MedMap Application v1.0.0"
            }
          }
        ]
      }
    }
  ]
}
